;PC Software:StarLab Version 3.80 Build 2
! ******* Warning: Do not modify this file. Changes may prevent   ********
! ******* the StarLab Log reader from opening the file correctly. ********
;Logged:22/11/2022 at 17:57:24
;File Version:5
;Time Resolution:1 microseconds
;Log Settings:Stop after:period: 00:05:00
;Graph Mode:Merge
;Graph Type:Line
;Notes:                                                            

;Channel A:Vega Thermopile 3A (s/n:947746)  VG2.54 (s/n:858327)

;Channel A:Details
;Name:3A
;Graph Color:RGB(14,104,168)
;Units:W
;Settings:Measuring:Power
;Settings:Wavelength:532
;Settings:Range:AUTO

;Channel A:Statistics
;Min:16.40mW             
;Max:124.7mW             
;Average:77.74mW             
;Std.Dev.:21.06mW             
;Overrange:0                   
;--------------------


;First Pulse Arrived : 22/11/2022 at 17:57:25
  Timestamp   	  Channel A  	
         0.000	  1.059e-01 	
         0.064	  1.059e-01 	
         0.128	  1.059e-01 	
         0.191	  1.059e-01 	
         0.255	  1.059e-01 	
         0.319	  1.059e-01 	
         0.384	  1.059e-01 	
         0.447	  1.059e-01 	
         0.512	  1.058e-01 	
         0.575	  1.058e-01 	
         0.639	  1.057e-01 	
         0.704	  1.057e-01 	
         0.768	  1.057e-01 	
         0.831	  1.057e-01 	
         0.895	  1.057e-01 	
         0.959	  1.057e-01 	
         1.023	  1.057e-01 	
         1.088	  1.057e-01 	
         1.151	  1.058e-01 	
         1.215	  1.058e-01 	
         1.280	  1.058e-01 	
         1.375	  1.058e-01 	
         1.439	  1.059e-01 	
         1.503	  1.059e-01 	
         1.567	  1.059e-01 	
         1.632	  1.060e-01 	
         1.695	  1.060e-01 	
         1.760	  1.061e-01 	
         1.823	  1.061e-01 	
         1.887	  1.061e-01 	
         1.952	  1.062e-01 	
         2.016	  1.062e-01 	
         2.080	  1.062e-01 	
         2.176	  1.062e-01 	
         2.239	  1.061e-01 	
         2.304	  1.061e-01 	
         2.368	  1.061e-01 	
         2.431	  1.060e-01 	
         2.496	  1.060e-01 	
         2.559	  1.060e-01 	
         2.624	  1.060e-01 	
         2.687	  1.060e-01 	
         2.751	  1.060e-01 	
         2.816	  1.059e-01 	
         2.880	  1.059e-01 	
         2.976	  1.059e-01 	
         3.039	  1.059e-01 	
         3.104	  1.059e-01 	
         3.168	  1.059e-01 	
         3.231	  1.059e-01 	
         3.296	  1.058e-01 	
         3.360	  1.058e-01 	
         3.423	  1.058e-01 	
         3.487	  1.058e-01 	
         3.551	  1.058e-01 	
         3.616	  1.058e-01 	
         3.680	  1.058e-01 	
         3.775	  1.057e-01 	
         3.840	  1.057e-01 	
         3.903	  1.057e-01 	
         3.967	  1.057e-01 	
         4.032	  1.057e-01 	
         4.095	  1.057e-01 	
         4.159	  1.057e-01 	
         4.224	  1.057e-01 	
         4.287	  1.057e-01 	
         4.352	  1.057e-01 	
         4.415	  1.057e-01 	
         4.480	  1.058e-01 	
         4.576	  1.058e-01 	
         4.639	  1.058e-01 	
         4.704	  1.059e-01 	
         4.768	  1.059e-01 	
         4.831	  1.060e-01 	
         4.896	  1.060e-01 	
         4.959	  1.061e-01 	
         5.023	  1.062e-01 	
         5.087	  1.062e-01 	
         5.152	  1.063e-01 	
         5.216	  1.063e-01 	
         5.280	  1.063e-01 	
         5.344	  1.064e-01 	
         5.439	  1.064e-01 	
         5.504	  1.064e-01 	
         5.568	  1.063e-01 	
         5.632	  1.063e-01 	
         5.696	  1.063e-01 	
         5.760	  1.063e-01 	
         5.824	  1.064e-01 	
         5.887	  1.064e-01 	
         5.952	  1.064e-01 	
         6.016	  1.064e-01 	
         6.079	  1.064e-01 	
         6.176	  1.064e-01 	
         6.239	  1.065e-01 	
         6.304	  1.065e-01 	
         6.368	  1.066e-01 	
         6.431	  1.067e-01 	
         6.496	  1.068e-01 	
         6.559	  1.069e-01 	
         6.624	  1.069e-01 	
         6.687	  1.070e-01 	
         6.752	  1.071e-01 	
         6.816	  1.071e-01 	
         6.879	  1.072e-01 	
         6.944	  1.072e-01 	
         7.039	  1.073e-01 	
         7.103	  1.073e-01 	
         7.168	  1.074e-01 	
         7.231	  1.075e-01 	
         7.296	  1.076e-01 	
         7.360	  1.077e-01 	
         7.423	  1.078e-01 	
         7.487	  1.079e-01 	
         7.551	  1.080e-01 	
         7.615	  1.082e-01 	
         7.680	  1.083e-01 	
         7.744	  1.084e-01 	
         7.840	  1.085e-01 	
         7.903	  1.087e-01 	
         7.968	  1.088e-01 	
         8.032	  1.089e-01 	
         8.096	  1.090e-01 	
         8.160	  1.091e-01 	
         8.224	  1.093e-01 	
         8.287	  1.094e-01 	
         8.352	  1.096e-01 	
         8.415	  1.098e-01 	
         8.479	  1.099e-01 	
         8.544	  1.101e-01 	
         8.639	  1.103e-01 	
         8.703	  1.105e-01 	
         8.768	  1.106e-01 	
         8.831	  1.108e-01 	
         8.896	  1.110e-01 	
         8.959	  1.111e-01 	
         9.024	  1.113e-01 	
         9.087	  1.114e-01 	
         9.151	  1.116e-01 	
         9.216	  1.118e-01 	
         9.280	  1.119e-01 	
         9.344	  1.121e-01 	
         9.440	  1.123e-01 	
         9.503	  1.126e-01 	
         9.568	  1.128e-01 	
         9.631	  1.130e-01 	
         9.696	  1.132e-01 	
         9.759	  1.135e-01 	
         9.823	  1.137e-01 	
         9.887	  1.139e-01 	
         9.951	  1.141e-01 	
        10.016	  1.143e-01 	
        10.080	  1.145e-01 	
        10.144	  1.147e-01 	
        10.240	  1.149e-01 	
        10.303	  1.150e-01 	
        10.367	  1.152e-01 	
        10.432	  1.154e-01 	
        10.495	  1.156e-01 	
        10.560	  1.158e-01 	
        10.623	  1.159e-01 	
        10.687	  1.161e-01 	
        10.752	  1.163e-01 	
        10.815	  1.164e-01 	
        10.879	  1.166e-01 	
        10.943	  1.169e-01 	
        11.039	  1.171e-01 	
        11.103	  1.174e-01 	
        11.168	  1.177e-01 	
        11.232	  1.180e-01 	
        11.295	  1.182e-01 	
        11.359	  1.185e-01 	
        11.423	  1.188e-01 	
        11.487	  1.191e-01 	
        11.552	  1.195e-01 	
        11.616	  1.198e-01 	
        11.680	  1.201e-01 	
        11.744	  1.204e-01 	
        11.839	  1.207e-01 	
        11.903	  1.210e-01 	
        11.967	  1.213e-01 	
        12.032	  1.216e-01 	
        12.096	  1.219e-01 	
        12.159	  1.222e-01 	
        12.223	  1.225e-01 	
        12.287	  1.228e-01 	
        12.352	  1.230e-01 	
        12.416	  1.233e-01 	
        12.479	  1.235e-01 	
        12.544	  1.237e-01 	
        12.640	  1.239e-01 	
        12.703	  1.241e-01 	
        12.767	  1.243e-01 	
        12.832	  1.244e-01 	
        12.896	  1.245e-01 	
        12.959	  1.246e-01 	
        13.024	  1.247e-01 	
        13.087	  1.247e-01 	
        13.152	  1.247e-01 	
        13.216	  1.246e-01 	
        13.280	  1.244e-01 	
        13.343	  1.242e-01 	
        13.440	  1.239e-01 	
        13.503	  1.236e-01 	
        13.568	  1.231e-01 	
        13.631	  1.226e-01 	
        13.696	  1.221e-01 	
        13.760	  1.214e-01 	
        13.824	  1.206e-01 	
        13.887	  1.198e-01 	
        13.952	  1.188e-01 	
        14.015	  1.177e-01 	
        14.080	  1.165e-01 	
        14.143	  1.151e-01 	
        14.240	  1.136e-01 	
        14.303	  1.120e-01 	
        14.367	  1.103e-01 	
        14.431	  1.085e-01 	
        14.496	  1.066e-01 	
        14.559	  1.046e-01 	
        14.623	  1.024e-01 	
        14.687	  1.002e-01 	
        14.751	  9.780e-02 	
        14.816	  9.540e-02 	
        14.880	  9.290e-02 	
        14.944	  9.020e-02 	
        15.040	  8.760e-02 	
        15.103	  8.490e-02 	
        15.168	  8.220e-02 	
        15.231	  7.940e-02 	
        15.295	  7.670e-02 	
        15.360	  7.400e-02 	
        15.423	  7.130e-02 	
        15.487	  6.860e-02 	
        15.552	  6.600e-02 	
        15.616	  6.350e-02 	
        15.680	  6.100e-02 	
        15.743	  5.860e-02 	
        15.839	  5.630e-02 	
        15.903	  5.400e-02 	
        15.968	  5.190e-02 	
        16.032	  4.980e-02 	
        16.096	  4.790e-02 	
        16.159	  4.610e-02 	
        16.224	  4.440e-02 	
        16.287	  4.280e-02 	
        16.352	  4.130e-02 	
        16.415	  4.000e-02 	
        16.480	  3.880e-02 	
        16.544	  3.770e-02 	
        16.640	  3.680e-02 	
        16.703	  3.610e-02 	
        16.768	  3.550e-02 	
        16.831	  3.500e-02 	
        16.896	  3.470e-02 	
        16.959	  3.450e-02 	
        17.024	  3.450e-02 	
        17.087	  3.450e-02 	
        17.152	  3.450e-02 	
        17.215	  3.470e-02 	
        17.279	  3.500e-02 	
        17.343	  3.540e-02 	
        17.439	  3.610e-02 	
        17.503	  3.720e-02 	
        17.568	  3.860e-02 	
        17.631	  3.990e-02 	
        17.696	  4.090e-02 	
        17.759	  4.180e-02 	
        17.824	  4.240e-02 	
        17.887	  4.280e-02 	
        17.952	  4.310e-02 	
        18.016	  4.340e-02 	
        18.079	  4.380e-02 	
        18.144	  4.410e-02 	
        18.239	  4.460e-02 	
        18.303	  4.510e-02 	
        18.368	  4.560e-02 	
        18.432	  4.610e-02 	
        18.496	  4.670e-02 	
        18.559	  4.720e-02 	
        18.623	  4.760e-02 	
        18.687	  4.760e-02 	
        18.752	  4.710e-02 	
        18.816	  4.620e-02 	
        18.880	  4.500e-02 	
        18.943	  4.360e-02 	
        19.039	  4.200e-02 	
        19.103	  4.050e-02 	
        19.168	  3.900e-02 	
        19.231	  3.770e-02 	
        19.295	  3.650e-02 	
        19.359	  3.560e-02 	
        19.423	  3.480e-02 	
        19.487	  3.420e-02 	
        19.552	  3.380e-02 	
        19.615	  3.360e-02 	
        19.680	  3.360e-02 	
        19.743	  3.380e-02 	
        19.807	  3.410e-02 	
        19.903	  3.450e-02 	
        19.968	  3.510e-02 	
        20.032	  3.580e-02 	
        20.095	  3.650e-02 	
        20.160	  3.740e-02 	
        20.224	  3.830e-02 	
        20.287	  3.930e-02 	
        20.352	  4.030e-02 	
        20.415	  4.140e-02 	
        20.480	  4.240e-02 	
        20.543	  4.360e-02 	
        20.608	  4.470e-02 	
        20.703	  4.570e-02 	
        20.767	  4.670e-02 	
        20.832	  4.770e-02 	
        20.895	  4.810e-02 	
        20.960	  4.790e-02 	
        21.023	  4.680e-02 	
        21.088	  4.510e-02 	
        21.152	  4.290e-02 	
        21.215	  4.040e-02 	
        21.280	  3.760e-02 	
        21.344	  3.470e-02 	
        21.407	  3.190e-02 	
        21.503	  2.930e-02 	
        21.567	  2.690e-02 	
        21.631	  2.450e-02 	
        21.696	  2.250e-02 	
        21.759	  2.060e-02 	
        21.823	  1.910e-02 	
        21.887	  1.800e-02 	
        21.952	  1.720e-02 	
        22.016	  1.670e-02 	
        22.079	  1.640e-02 	
        22.144	  1.640e-02 	
        22.208	  1.670e-02 	
        22.303	  1.720e-02 	
        22.368	  1.780e-02 	
        22.432	  1.850e-02 	
        22.496	  1.920e-02 	
        22.560	  2.000e-02 	
        22.623	  2.080e-02 	
        22.687	  2.160e-02 	
        22.751	  2.240e-02 	
        22.816	  2.320e-02 	
        22.879	  2.400e-02 	
        22.943	  2.470e-02 	
        23.008	  2.540e-02 	
        23.103	  2.610e-02 	
        23.168	  2.670e-02 	
        23.232	  2.720e-02 	
        23.295	  2.770e-02 	
        23.359	  2.810e-02 	
        23.423	  2.840e-02 	
        23.487	  2.870e-02 	
        23.551	  2.880e-02 	
        23.616	  2.890e-02 	
        23.680	  2.890e-02 	
        23.744	  2.900e-02 	
        23.808	  2.910e-02 	
        23.903	  2.920e-02 	
        23.967	  2.940e-02 	
        24.032	  2.960e-02 	
        24.096	  2.980e-02 	
        24.159	  3.010e-02 	
        24.224	  3.050e-02 	
        24.287	  3.090e-02 	
        24.351	  3.140e-02 	
        24.416	  3.200e-02 	
        24.480	  3.260e-02 	
        24.544	  3.330e-02 	
        24.607	  3.410e-02 	
        24.703	  3.490e-02 	
        24.767	  3.580e-02 	
        24.832	  3.660e-02 	
        24.895	  3.750e-02 	
        24.960	  3.830e-02 	
        25.023	  3.910e-02 	
        25.087	  3.980e-02 	
        25.151	  4.050e-02 	
        25.216	  4.110e-02 	
        25.280	  4.170e-02 	
        25.343	  4.220e-02 	
        25.408	  4.270e-02 	
        25.503	  4.320e-02 	
        25.567	  4.360e-02 	
        25.632	  4.400e-02 	
        25.695	  4.430e-02 	
        25.760	  4.460e-02 	
        25.824	  4.480e-02 	
        25.887	  4.500e-02 	
        25.951	  4.510e-02 	
        26.016	  4.510e-02 	
        26.080	  4.510e-02 	
        26.144	  4.500e-02 	
        26.207	  4.480e-02 	
        26.303	  4.460e-02 	
        26.368	  4.440e-02 	
        26.431	  4.410e-02 	
        26.496	  4.380e-02 	
        26.559	  4.350e-02 	
        26.624	  4.330e-02 	
        26.687	  4.300e-02 	
        26.751	  4.280e-02 	
        26.816	  4.260e-02 	
        26.880	  4.240e-02 	
        26.944	  4.220e-02 	
        27.008	  4.210e-02 	
        27.103	  4.200e-02 	
        27.167	  4.200e-02 	
        27.232	  4.200e-02 	
        27.295	  4.210e-02 	
        27.359	  4.220e-02 	
        27.423	  4.240e-02 	
        27.488	  4.270e-02 	
        27.551	  4.310e-02 	
        27.615	  4.350e-02 	
        27.680	  4.390e-02 	
        27.744	  4.450e-02 	
        27.807	  4.500e-02 	
        27.904	  4.560e-02 	
        27.967	  4.630e-02 	
        28.032	  4.700e-02 	
        28.095	  4.770e-02 	
        28.160	  4.840e-02 	
        28.223	  4.920e-02 	
        28.288	  4.990e-02 	
        28.351	  5.060e-02 	
        28.416	  5.120e-02 	
        28.480	  5.190e-02 	
        28.543	  5.240e-02 	
        28.608	  5.300e-02 	
        28.703	  5.350e-02 	
        28.767	  5.400e-02 	
        28.832	  5.440e-02 	
        28.895	  5.470e-02 	
        28.959	  5.500e-02 	
        29.024	  5.520e-02 	
        29.087	  5.540e-02 	
        29.151	  5.550e-02 	
        29.215	  5.560e-02 	
        29.280	  5.570e-02 	
        29.343	  5.570e-02 	
        29.407	  5.570e-02 	
        29.504	  5.570e-02 	
        29.567	  5.570e-02 	
        29.631	  5.570e-02 	
        29.696	  5.570e-02 	
        29.760	  5.570e-02 	
        29.823	  5.570e-02 	
        29.887	  5.570e-02 	
        29.951	  5.570e-02 	
        30.016	  5.570e-02 	
        30.079	  5.570e-02 	
        30.144	  5.570e-02 	
        30.207	  5.560e-02 	
        30.303	  5.560e-02 	
        30.367	  5.560e-02 	
        30.432	  5.560e-02 	
        30.495	  5.550e-02 	
        30.560	  5.550e-02 	
        30.623	  5.550e-02 	
        30.687	  5.550e-02 	
        30.751	  5.550e-02 	
        30.815	  5.550e-02 	
        30.880	  5.550e-02 	
        30.943	  5.550e-02 	
        31.008	  5.550e-02 	
        31.104	  5.550e-02 	
        31.167	  5.560e-02 	
        31.232	  5.560e-02 	
        31.296	  5.560e-02 	
        31.360	  5.560e-02 	
        31.424	  5.560e-02 	
        31.487	  5.560e-02 	
        31.551	  5.560e-02 	
        31.615	  5.560e-02 	
        31.679	  5.560e-02 	
        31.744	  5.560e-02 	
        31.808	  5.560e-02 	
        31.903	  5.560e-02 	
        31.967	  5.560e-02 	
        32.032	  5.560e-02 	
        32.096	  5.560e-02 	
        32.160	  5.560e-02 	
        32.224	  5.560e-02 	
        32.287	  5.560e-02 	
        32.351	  5.560e-02 	
        32.416	  5.560e-02 	
        32.479	  5.560e-02 	
        32.543	  5.560e-02 	
        32.607	  5.560e-02 	
        32.672	  5.550e-02 	
        32.767	  5.550e-02 	
        32.831	  5.550e-02 	
        32.896	  5.550e-02 	
        32.960	  5.550e-02 	
        33.024	  5.550e-02 	
        33.087	  5.550e-02 	
        33.151	  5.550e-02 	
        33.216	  5.550e-02 	
        33.279	  5.550e-02 	
        33.344	  5.560e-02 	
        33.407	  5.560e-02 	
        33.472	  5.560e-02 	
        33.567	  5.570e-02 	
        33.631	  5.570e-02 	
        33.696	  5.570e-02 	
        33.759	  5.580e-02 	
        33.824	  5.580e-02 	
        33.888	  5.580e-02 	
        33.951	  5.580e-02 	
        34.016	  5.580e-02 	
        34.079	  5.580e-02 	
        34.144	  5.580e-02 	
        34.207	  5.580e-02 	
        34.271	  5.580e-02 	
        34.367	  5.570e-02 	
        34.431	  5.570e-02 	
        34.496	  5.560e-02 	
        34.560	  5.560e-02 	
        34.623	  5.560e-02 	
        34.687	  5.560e-02 	
        34.751	  5.570e-02 	
        34.816	  5.570e-02 	
        34.880	  5.570e-02 	
        34.943	  5.570e-02 	
        35.008	  5.570e-02 	
        35.104	  5.570e-02 	
        35.167	  5.570e-02 	
        35.232	  5.580e-02 	
        35.295	  5.580e-02 	
        35.360	  5.580e-02 	
        35.424	  5.590e-02 	
        35.487	  5.590e-02 	
        35.551	  5.590e-02 	
        35.616	  5.580e-02 	
        35.680	  5.580e-02 	
        35.744	  5.570e-02 	
        35.808	  5.570e-02 	
        35.872	  5.570e-02 	
        35.967	  5.560e-02 	
        36.032	  5.560e-02 	
        36.096	  5.560e-02 	
        36.160	  5.560e-02 	
        36.224	  5.560e-02 	
        36.288	  5.560e-02 	
        36.351	  5.570e-02 	
        36.416	  5.570e-02 	
        36.480	  5.580e-02 	
        36.544	  5.580e-02 	
        36.607	  5.580e-02 	
        36.672	  5.590e-02 	
        36.767	  5.590e-02 	
        36.832	  5.590e-02 	
        36.896	  5.590e-02 	
        36.960	  5.590e-02 	
        37.024	  5.590e-02 	
        37.088	  5.590e-02 	
        37.151	  5.600e-02 	
        37.216	  5.600e-02 	
        37.279	  5.600e-02 	
        37.344	  5.600e-02 	
        37.407	  5.600e-02 	
        37.471	  5.600e-02 	
        37.567	  5.590e-02 	
        37.631	  5.590e-02 	
        37.696	  5.590e-02 	
        37.759	  5.590e-02 	
        37.824	  5.580e-02 	
        37.888	  5.580e-02 	
        37.951	  5.580e-02 	
        38.016	  5.580e-02 	
        38.080	  5.580e-02 	
        38.144	  5.580e-02 	
        38.208	  5.580e-02 	
        38.271	  5.580e-02 	
        38.367	  5.570e-02 	
        38.431	  5.570e-02 	
        38.495	  5.570e-02 	
        38.559	  5.570e-02 	
        38.623	  5.560e-02 	
        38.688	  5.560e-02 	
        38.751	  5.560e-02 	
        38.816	  5.550e-02 	
        38.880	  5.550e-02 	
        38.944	  5.550e-02 	
        39.008	  5.550e-02 	
        39.072	  5.550e-02 	
        39.168	  5.550e-02 	
        39.231	  5.540e-02 	
        39.295	  5.540e-02 	
        39.360	  5.540e-02 	
        39.424	  5.540e-02 	
        39.487	  5.540e-02 	
        39.552	  5.540e-02 	
        39.615	  5.540e-02 	
        39.680	  5.550e-02 	
        39.744	  5.550e-02 	
        39.808	  5.550e-02 	
        39.872	  5.560e-02 	
        39.967	  5.560e-02 	
        40.032	  5.560e-02 	
        40.096	  5.570e-02 	
        40.159	  5.570e-02 	
        40.223	  5.570e-02 	
        40.288	  5.570e-02 	
        40.351	  5.570e-02 	
        40.415	  5.570e-02 	
        40.479	  5.570e-02 	
        40.544	  5.580e-02 	
        40.607	  5.580e-02 	
        40.672	  5.580e-02 	
        40.767	  5.580e-02 	
        40.831	  5.590e-02 	
        40.896	  5.590e-02 	
        40.960	  5.590e-02 	
        41.024	  5.590e-02 	
        41.088	  5.590e-02 	
        41.151	  5.590e-02 	
        41.216	  5.590e-02 	
        41.280	  5.590e-02 	
        41.344	  5.590e-02 	
        41.408	  5.590e-02 	
        41.471	  5.590e-02 	
        41.567	  5.590e-02 	
        41.631	  5.590e-02 	
        41.695	  5.590e-02 	
        41.760	  5.590e-02 	
        41.823	  5.590e-02 	
        41.887	  5.580e-02 	
        41.952	  5.580e-02 	
        42.016	  5.580e-02 	
        42.080	  5.580e-02 	
        42.143	  5.580e-02 	
        42.207	  5.580e-02 	
        42.272	  5.580e-02 	
        42.367	  5.580e-02 	
        42.432	  5.580e-02 	
        42.496	  5.580e-02 	
        42.560	  5.580e-02 	
        42.624	  5.580e-02 	
        42.686	  5.580e-02 	
        42.751	  5.580e-02 	
        42.815	  5.580e-02 	
        42.879	  5.580e-02 	
        42.943	  5.580e-02 	
        43.007	  5.580e-02 	
        43.072	  5.580e-02 	
        43.167	  5.580e-02 	
        43.231	  5.580e-02 	
        43.296	  5.580e-02 	
        43.359	  5.580e-02 	
        43.423	  5.580e-02 	
        43.487	  5.580e-02 	
        43.551	  5.580e-02 	
        43.615	  5.580e-02 	
        43.679	  5.580e-02 	
        43.743	  5.580e-02 	
        43.808	  5.580e-02 	
        43.872	  5.580e-02 	
        43.967	  5.570e-02 	
        44.032	  5.570e-02 	
        44.095	  5.570e-02 	
        44.159	  5.560e-02 	
        44.223	  5.550e-02 	
        44.287	  5.540e-02 	
        44.352	  5.520e-02 	
        44.415	  5.500e-02 	
        44.480	  5.480e-02 	
        44.543	  5.460e-02 	
        44.607	  5.430e-02 	
        44.672	  5.410e-02 	
        44.767	  5.380e-02 	
        44.832	  5.360e-02 	
        44.896	  5.340e-02 	
        44.959	  5.320e-02 	
        45.024	  5.310e-02 	
        45.087	  5.300e-02 	
        45.152	  5.290e-02 	
        45.215	  5.290e-02 	
        45.280	  5.300e-02 	
        45.343	  5.310e-02 	
        45.408	  5.330e-02 	
        45.472	  5.350e-02 	
        45.567	  5.380e-02 	
        45.632	  5.420e-02 	
        45.696	  5.460e-02 	
        45.759	  5.500e-02 	
        45.824	  5.560e-02 	
        45.887	  5.610e-02 	
        45.951	  5.660e-02 	
        46.015	  5.710e-02 	
        46.079	  5.770e-02 	
        46.143	  5.820e-02 	
        46.207	  5.870e-02 	
        46.271	  5.910e-02 	
        46.335	  5.960e-02 	
        46.431	  6.000e-02 	
        46.495	  6.040e-02 	
        46.560	  6.070e-02 	
        46.624	  6.100e-02 	
        46.687	  6.120e-02 	
        46.751	  6.140e-02 	
        46.815	  6.160e-02 	
        46.879	  6.170e-02 	
        46.944	  6.180e-02 	
        47.008	  6.180e-02 	
        47.071	  6.180e-02 	
        47.135	  6.170e-02 	
        47.232	  6.160e-02 	
        47.295	  6.140e-02 	
        47.360	  6.120e-02 	
        47.424	  6.100e-02 	
        47.488	  6.080e-02 	
        47.552	  6.050e-02 	
        47.615	  6.020e-02 	
        47.680	  5.990e-02 	
        47.743	  5.960e-02 	
        47.808	  5.930e-02 	
        47.871	  5.900e-02 	
        47.936	  5.880e-02 	
        48.031	  5.860e-02 	
        48.096	  5.840e-02 	
        48.160	  5.820e-02 	
        48.223	  5.800e-02 	
        48.287	  5.790e-02 	
        48.352	  5.790e-02 	
        48.415	  5.780e-02 	
        48.480	  5.790e-02 	
        48.544	  5.790e-02 	
        48.608	  5.800e-02 	
        48.672	  5.820e-02 	
        48.736	  5.830e-02 	
        48.831	  5.850e-02 	
        48.896	  5.880e-02 	
        48.960	  5.900e-02 	
        49.024	  5.930e-02 	
        49.088	  5.960e-02 	
        49.151	  6.000e-02 	
        49.215	  6.030e-02 	
        49.279	  6.070e-02 	
        49.344	  6.100e-02 	
        49.407	  6.140e-02 	
        49.472	  6.170e-02 	
        49.536	  6.200e-02 	
        49.631	  6.220e-02 	
        49.696	  6.240e-02 	
        49.760	  6.260e-02 	
        49.823	  6.280e-02 	
        49.888	  6.290e-02 	
        49.952	  6.290e-02 	
        50.015	  6.300e-02 	
        50.080	  6.300e-02 	
        50.142	  6.300e-02 	
        50.208	  6.290e-02 	
        50.271	  6.290e-02 	
        50.335	  6.280e-02 	
        50.431	  6.280e-02 	
        50.495	  6.270e-02 	
        50.560	  6.270e-02 	
        50.624	  6.270e-02 	
        50.687	  6.260e-02 	
        50.752	  6.260e-02 	
        50.815	  6.260e-02 	
        50.880	  6.260e-02 	
        50.944	  6.260e-02 	
        51.008	  6.250e-02 	
        51.072	  6.250e-02 	
        51.135	  6.240e-02 	
        51.231	  6.230e-02 	
        51.295	  6.220e-02 	
        51.359	  6.210e-02 	
        51.424	  6.200e-02 	
        51.488	  6.190e-02 	
        51.552	  6.180e-02 	
        51.614	  6.180e-02 	
        51.679	  6.190e-02 	
        51.744	  6.190e-02 	
        51.808	  6.200e-02 	
        51.871	  6.210e-02 	
        51.935	  6.220e-02 	
        52.031	  6.240e-02 	
        52.095	  6.250e-02 	
        52.159	  6.270e-02 	
        52.223	  6.280e-02 	
        52.288	  6.300e-02 	
        52.351	  6.320e-02 	
        52.415	  6.340e-02 	
        52.480	  6.350e-02 	
        52.544	  6.370e-02 	
        52.607	  6.390e-02 	
        52.671	  6.400e-02 	
        52.736	  6.420e-02 	
        52.831	  6.430e-02 	
        52.895	  6.440e-02 	
        52.960	  6.440e-02 	
        53.023	  6.450e-02 	
        53.087	  6.450e-02 	
        53.151	  6.450e-02 	
        53.215	  6.440e-02 	
        53.280	  6.440e-02 	
        53.344	  6.430e-02 	
        53.408	  6.420e-02 	
        53.472	  6.400e-02 	
        53.536	  6.380e-02 	
        53.631	  6.360e-02 	
        53.695	  6.340e-02 	
        53.760	  6.320e-02 	
        53.824	  6.300e-02 	
        53.888	  6.280e-02 	
        53.952	  6.250e-02 	
        54.015	  6.230e-02 	
        54.079	  6.200e-02 	
        54.143	  6.170e-02 	
        54.207	  6.140e-02 	
        54.272	  6.120e-02 	
        54.335	  6.090e-02 	
        54.431	  6.070e-02 	
        54.496	  6.050e-02 	
        54.559	  6.030e-02 	
        54.624	  6.010e-02 	
        54.687	  6.000e-02 	
        54.751	  5.990e-02 	
        54.815	  5.980e-02 	
        54.879	  5.970e-02 	
        54.944	  5.970e-02 	
        55.007	  5.970e-02 	
        55.072	  5.970e-02 	
        55.136	  5.970e-02 	
        55.231	  5.980e-02 	
        55.296	  5.990e-02 	
        55.360	  6.000e-02 	
        55.424	  6.020e-02 	
        55.488	  6.040e-02 	
        55.551	  6.050e-02 	
        55.615	  6.070e-02 	
        55.679	  6.090e-02 	
        55.744	  6.110e-02 	
        55.807	  6.130e-02 	
        55.872	  6.160e-02 	
        55.935	  6.180e-02 	
        56.031	  6.200e-02 	
        56.096	  6.210e-02 	
        56.160	  6.230e-02 	
        56.224	  6.250e-02 	
        56.287	  6.260e-02 	
        56.351	  6.270e-02 	
        56.415	  6.280e-02 	
        56.480	  6.290e-02 	
        56.543	  6.290e-02 	
        56.608	  6.300e-02 	
        56.671	  6.300e-02 	
        56.735	  6.300e-02 	
        56.831	  6.300e-02 	
        56.896	  6.300e-02 	
        56.960	  6.300e-02 	
        57.024	  6.300e-02 	
        57.087	  6.300e-02 	
        57.151	  6.290e-02 	
        57.215	  6.290e-02 	
        57.280	  6.290e-02 	
        57.344	  6.290e-02 	
        57.408	  6.290e-02 	
        57.472	  6.280e-02 	
        57.535	  6.280e-02 	
        57.631	  6.280e-02 	
        57.695	  6.280e-02 	
        57.759	  6.290e-02 	
        57.824	  6.290e-02 	
        57.887	  6.290e-02 	
        57.951	  6.300e-02 	
        58.015	  6.300e-02 	
        58.079	  6.310e-02 	
        58.143	  6.330e-02 	
        58.207	  6.340e-02 	
        58.271	  6.360e-02 	
        58.336	  6.380e-02 	
        58.431	  6.400e-02 	
        58.496	  6.420e-02 	
        58.560	  6.440e-02 	
        58.624	  6.460e-02 	
        58.688	  6.480e-02 	
        58.751	  6.500e-02 	
        58.815	  6.520e-02 	
        58.879	  6.540e-02 	
        58.944	  6.560e-02 	
        59.007	  6.570e-02 	
        59.071	  6.590e-02 	
        59.135	  6.600e-02 	
        59.199	  6.620e-02 	
        59.296	  6.630e-02 	
        59.360	  6.640e-02 	
        59.423	  6.650e-02 	
        59.488	  6.660e-02 	
        59.551	  6.670e-02 	
        59.615	  6.670e-02 	
        59.679	  6.670e-02 	
        59.743	  6.670e-02 	
        59.808	  6.670e-02 	
        59.871	  6.670e-02 	
        59.936	  6.660e-02 	
        59.999	  6.660e-02 	
        60.095	  6.660e-02 	
        60.160	  6.660e-02 	
        60.224	  6.670e-02 	
        60.287	  6.680e-02 	
        60.351	  6.680e-02 	
        60.415	  6.690e-02 	
        60.480	  6.700e-02 	
        60.544	  6.710e-02 	
        60.608	  6.720e-02 	
        60.672	  6.730e-02 	
        60.735	  6.740e-02 	
        60.799	  6.750e-02 	
        60.896	  6.750e-02 	
        60.958	  6.760e-02 	
        61.024	  6.760e-02 	
        61.088	  6.770e-02 	
        61.151	  6.770e-02 	
        61.215	  6.770e-02 	
        61.280	  6.770e-02 	
        61.344	  6.770e-02 	
        61.407	  6.770e-02 	
        61.472	  6.770e-02 	
        61.535	  6.780e-02 	
        61.600	  6.780e-02 	
        61.695	  6.780e-02 	
        61.759	  6.780e-02 	
        61.824	  6.780e-02 	
        61.886	  6.780e-02 	
        61.951	  6.780e-02 	
        62.015	  6.780e-02 	
        62.079	  6.790e-02 	
        62.144	  6.790e-02 	
        62.207	  6.790e-02 	
        62.272	  6.790e-02 	
        62.336	  6.790e-02 	
        62.399	  6.800e-02 	
        62.496	  6.800e-02 	
        62.560	  6.800e-02 	
        62.624	  6.800e-02 	
        62.687	  6.800e-02 	
        62.751	  6.790e-02 	
        62.815	  6.790e-02 	
        62.879	  6.790e-02 	
        62.944	  6.790e-02 	
        63.007	  6.790e-02 	
        63.071	  6.790e-02 	
        63.136	  6.790e-02 	
        63.199	  6.800e-02 	
        63.295	  6.800e-02 	
        63.360	  6.800e-02 	
        63.423	  6.800e-02 	
        63.487	  6.800e-02 	
        63.551	  6.800e-02 	
        63.615	  6.800e-02 	
        63.679	  6.800e-02 	
        63.744	  6.800e-02 	
        63.808	  6.800e-02 	
        63.872	  6.800e-02 	
        63.936	  6.800e-02 	
        64.000	  6.800e-02 	
        64.096	  6.800e-02 	
        64.159	  6.800e-02 	
        64.223	  6.800e-02 	
        64.287	  6.800e-02 	
        64.352	  6.810e-02 	
        64.415	  6.810e-02 	
        64.479	  6.820e-02 	
        64.544	  6.820e-02 	
        64.608	  6.830e-02 	
        64.671	  6.830e-02 	
        64.736	  6.840e-02 	
        64.799	  6.840e-02 	
        64.896	  6.850e-02 	
        64.959	  6.850e-02 	
        65.024	  6.850e-02 	
        65.088	  6.850e-02 	
        65.151	  6.850e-02 	
        65.216	  6.850e-02 	
        65.279	  6.850e-02 	
        65.344	  6.850e-02 	
        65.408	  6.850e-02 	
        65.471	  6.850e-02 	
        65.536	  6.850e-02 	
        65.599	  6.850e-02 	
        65.696	  6.860e-02 	
        65.760	  6.860e-02 	
        65.824	  6.860e-02 	
        65.888	  6.870e-02 	
        65.952	  6.870e-02 	
        66.015	  6.870e-02 	
        66.079	  6.870e-02 	
        66.143	  6.860e-02 	
        66.208	  6.860e-02 	
        66.271	  6.860e-02 	
        66.336	  6.860e-02 	
        66.400	  6.860e-02 	
        66.496	  6.860e-02 	
        66.560	  6.860e-02 	
        66.624	  6.860e-02 	
        66.687	  6.860e-02 	
        66.751	  6.860e-02 	
        66.816	  6.850e-02 	
        66.879	  6.850e-02 	
        66.944	  6.850e-02 	
        67.007	  6.850e-02 	
        67.072	  6.850e-02 	
        67.135	  6.850e-02 	
        67.200	  6.850e-02 	
        67.295	  6.840e-02 	
        67.359	  6.850e-02 	
        67.424	  6.850e-02 	
        67.488	  6.850e-02 	
        67.550	  6.850e-02 	
        67.615	  6.850e-02 	
        67.679	  6.850e-02 	
        67.744	  6.850e-02 	
        67.807	  6.850e-02 	
        67.872	  6.850e-02 	
        67.936	  6.860e-02 	
        67.999	  6.860e-02 	
        68.095	  6.860e-02 	
        68.160	  6.870e-02 	
        68.224	  6.870e-02 	
        68.287	  6.880e-02 	
        68.352	  6.880e-02 	
        68.416	  6.890e-02 	
        68.479	  6.890e-02 	
        68.543	  6.890e-02 	
        68.608	  6.900e-02 	
        68.671	  6.900e-02 	
        68.736	  6.900e-02 	
        68.800	  6.900e-02 	
        68.895	  6.900e-02 	
        68.960	  6.900e-02 	
        69.024	  6.900e-02 	
        69.087	  6.900e-02 	
        69.152	  6.900e-02 	
        69.215	  6.900e-02 	
        69.279	  6.900e-02 	
        69.344	  6.910e-02 	
        69.408	  6.910e-02 	
        69.472	  6.910e-02 	
        69.535	  6.910e-02 	
        69.599	  6.910e-02 	
        69.695	  6.910e-02 	
        69.760	  6.910e-02 	
        69.824	  6.900e-02 	
        69.888	  6.900e-02 	
        69.952	  6.910e-02 	
        70.016	  6.910e-02 	
        70.079	  6.910e-02 	
        70.144	  6.910e-02 	
        70.207	  6.920e-02 	
        70.272	  6.930e-02 	
        70.336	  6.940e-02 	
        70.400	  6.950e-02 	
        70.495	  6.960e-02 	
        70.560	  6.970e-02 	
        70.624	  6.990e-02 	
        70.688	  7.000e-02 	
        70.752	  7.020e-02 	
        70.815	  7.030e-02 	
        70.879	  7.050e-02 	
        70.944	  7.070e-02 	
        71.008	  7.080e-02 	
        71.071	  7.100e-02 	
        71.136	  7.130e-02 	
        71.200	  7.150e-02 	
        71.295	  7.170e-02 	
        71.360	  7.190e-02 	
        71.423	  7.220e-02 	
        71.487	  7.240e-02 	
        71.552	  7.260e-02 	
        71.615	  7.280e-02 	
        71.678	  7.310e-02 	
        71.743	  7.330e-02 	
        71.808	  7.350e-02 	
        71.871	  7.370e-02 	
        71.936	  7.380e-02 	
        71.999	  7.400e-02 	
        72.095	  7.410e-02 	
        72.160	  7.430e-02 	
        72.223	  7.440e-02 	
        72.288	  7.450e-02 	
        72.352	  7.460e-02 	
        72.415	  7.470e-02 	
        72.479	  7.480e-02 	
        72.544	  7.490e-02 	
        72.608	  7.490e-02 	
        72.671	  7.500e-02 	
        72.736	  7.500e-02 	
        72.800	  7.510e-02 	
        72.894	  7.520e-02 	
        72.960	  7.520e-02 	
        73.024	  7.530e-02 	
        73.088	  7.530e-02 	
        73.151	  7.540e-02 	
        73.215	  7.550e-02 	
        73.279	  7.560e-02 	
        73.343	  7.560e-02 	
        73.408	  7.570e-02 	
        73.472	  7.580e-02 	
        73.535	  7.590e-02 	
        73.600	  7.600e-02 	
        73.662	  7.610e-02 	
        73.758	  7.620e-02 	
        73.824	  7.630e-02 	
        73.887	  7.640e-02 	
        73.951	  7.660e-02 	
        74.015	  7.670e-02 	
        74.079	  7.690e-02 	
        74.144	  7.700e-02 	
        74.207	  7.720e-02 	
        74.272	  7.730e-02 	
        74.336	  7.750e-02 	
        74.400	  7.760e-02 	
        74.463	  7.780e-02 	
        74.560	  7.790e-02 	
        74.624	  7.800e-02 	
        74.688	  7.820e-02 	
        74.752	  7.830e-02 	
        74.816	  7.840e-02 	
        74.879	  7.850e-02 	
        74.944	  7.860e-02 	
        75.007	  7.870e-02 	
        75.071	  7.880e-02 	
        75.136	  7.890e-02 	
        75.199	  7.890e-02 	
        75.263	  7.900e-02 	
        75.360	  7.910e-02 	
        75.424	  7.910e-02 	
        75.488	  7.920e-02 	
        75.552	  7.920e-02 	
        75.615	  7.920e-02 	
        75.679	  7.920e-02 	
        75.744	  7.930e-02 	
        75.808	  7.930e-02 	
        75.871	  7.930e-02 	
        75.936	  7.940e-02 	
        76.000	  7.940e-02 	
        76.063	  7.950e-02 	
        76.160	  7.950e-02 	
        76.224	  7.950e-02 	
        76.287	  7.960e-02 	
        76.352	  7.970e-02 	
        76.416	  7.970e-02 	
        76.479	  7.980e-02 	
        76.543	  7.990e-02 	
        76.607	  8.000e-02 	
        76.672	  8.010e-02 	
        76.736	  8.030e-02 	
        76.800	  8.040e-02 	
        76.864	  8.050e-02 	
        76.960	  8.060e-02 	
        77.023	  8.070e-02 	
        77.087	  8.080e-02 	
        77.151	  8.090e-02 	
        77.215	  8.100e-02 	
        77.279	  8.110e-02 	
        77.344	  8.120e-02 	
        77.408	  8.130e-02 	
        77.472	  8.140e-02 	
        77.536	  8.150e-02 	
        77.599	  8.170e-02 	
        77.663	  8.180e-02 	
        77.760	  8.190e-02 	
        77.824	  8.190e-02 	
        77.888	  8.200e-02 	
        77.951	  8.210e-02 	
        78.016	  8.210e-02 	
        78.079	  8.220e-02 	
        78.144	  8.220e-02 	
        78.207	  8.230e-02 	
        78.271	  8.230e-02 	
        78.336	  8.240e-02 	
        78.399	  8.240e-02 	
        78.462	  8.240e-02 	
        78.560	  8.240e-02 	
        78.624	  8.240e-02 	
        78.688	  8.240e-02 	
        78.752	  8.240e-02 	
        78.816	  8.240e-02 	
        78.879	  8.240e-02 	
        78.943	  8.240e-02 	
        79.007	  8.240e-02 	
        79.070	  8.240e-02 	
        79.135	  8.240e-02 	
        79.199	  8.250e-02 	
        79.263	  8.250e-02 	
        79.359	  8.250e-02 	
        79.423	  8.260e-02 	
        79.487	  8.260e-02 	
        79.551	  8.270e-02 	
        79.615	  8.280e-02 	
        79.679	  8.290e-02 	
        79.743	  8.290e-02 	
        79.807	  8.300e-02 	
        79.871	  8.310e-02 	
        79.935	  8.320e-02 	
        79.999	  8.330e-02 	
        80.063	  8.330e-02 	
        80.159	  8.340e-02 	
        80.223	  8.340e-02 	
        80.287	  8.350e-02 	
        80.351	  8.360e-02 	
        80.415	  8.370e-02 	
        80.479	  8.370e-02 	
        80.543	  8.380e-02 	
        80.607	  8.390e-02 	
        80.671	  8.400e-02 	
        80.735	  8.410e-02 	
        80.799	  8.420e-02 	
        80.863	  8.430e-02 	
        80.959	  8.440e-02 	
        81.024	  8.450e-02 	
        81.088	  8.450e-02 	
        81.151	  8.460e-02 	
        81.216	  8.470e-02 	
        81.279	  8.480e-02 	
        81.344	  8.490e-02 	
        81.408	  8.500e-02 	
        81.472	  8.510e-02 	
        81.535	  8.520e-02 	
        81.599	  8.530e-02 	
        81.664	  8.540e-02 	
        81.760	  8.550e-02 	
        81.823	  8.560e-02 	
        81.888	  8.560e-02 	
        81.952	  8.570e-02 	
        82.016	  8.570e-02 	
        82.079	  8.570e-02 	
        82.143	  8.580e-02 	
        82.207	  8.580e-02 	
        82.271	  8.580e-02 	
        82.335	  8.580e-02 	
        82.398	  8.590e-02 	
        82.463	  8.590e-02 	
        82.560	  8.600e-02 	
        82.624	  8.600e-02 	
        82.687	  8.610e-02 	
        82.751	  8.620e-02 	
        82.815	  8.630e-02 	
        82.879	  8.640e-02 	
        82.943	  8.640e-02 	
        83.008	  8.650e-02 	
        83.072	  8.660e-02 	
        83.136	  8.660e-02 	
        83.199	  8.670e-02 	
        83.263	  8.680e-02 	
        83.360	  8.680e-02 	
        83.424	  8.680e-02 	
        83.486	  8.690e-02 	
        83.551	  8.690e-02 	
        83.616	  8.700e-02 	
        83.679	  8.700e-02 	
        83.743	  8.710e-02 	
        83.806	  8.710e-02 	
        83.871	  8.720e-02 	
        83.936	  8.720e-02 	
        84.000	  8.730e-02 	
        84.064	  8.740e-02 	
        84.160	  8.750e-02 	
        84.223	  8.760e-02 	
        84.288	  8.760e-02 	
        84.351	  8.770e-02 	
        84.415	  8.770e-02 	
        84.479	  8.780e-02 	
        84.543	  8.780e-02 	
        84.608	  8.790e-02 	
        84.672	  8.800e-02 	
        84.736	  8.800e-02 	
        84.799	  8.810e-02 	
        84.863	  8.810e-02 	
        84.959	  8.810e-02 	
        85.023	  8.820e-02 	
        85.088	  8.820e-02 	
        85.152	  8.830e-02 	
        85.216	  8.830e-02 	
        85.280	  8.840e-02 	
        85.343	  8.840e-02 	
        85.408	  8.850e-02 	
        85.472	  8.850e-02 	
        85.536	  8.860e-02 	
        85.600	  8.860e-02 	
        85.663	  8.870e-02 	
        85.760	  8.870e-02 	
        85.824	  8.870e-02 	
        85.887	  8.880e-02 	
        85.952	  8.880e-02 	
        86.016	  8.890e-02 	
        86.079	  8.890e-02 	
        86.143	  8.890e-02 	
        86.208	  8.900e-02 	
        86.272	  8.900e-02 	
        86.335	  8.900e-02 	
        86.400	  8.910e-02 	
        86.463	  8.910e-02 	
        86.527	  8.920e-02 	
        86.623	  8.920e-02 	
        86.688	  8.930e-02 	
        86.751	  8.930e-02 	
        86.815	  8.940e-02 	
        86.879	  8.940e-02 	
        86.943	  8.940e-02 	
        87.008	  8.940e-02 	
        87.072	  8.940e-02 	
        87.136	  8.940e-02 	
        87.199	  8.940e-02 	
        87.263	  8.950e-02 	
        87.359	  8.950e-02 	
        87.423	  8.950e-02 	
        87.488	  8.950e-02 	
        87.551	  8.950e-02 	
        87.615	  8.950e-02 	
        87.679	  8.950e-02 	
        87.743	  8.950e-02 	
        87.807	  8.950e-02 	
        87.871	  8.950e-02 	
        87.936	  8.950e-02 	
        87.999	  8.950e-02 	
        88.063	  8.950e-02 	
        88.127	  8.950e-02 	
        88.223	  8.950e-02 	
        88.287	  8.950e-02 	
        88.352	  8.960e-02 	
        88.415	  8.960e-02 	
        88.479	  8.950e-02 	
        88.543	  8.950e-02 	
        88.607	  8.950e-02 	
        88.671	  8.950e-02 	
        88.735	  8.940e-02 	
        88.800	  8.940e-02 	
        88.863	  8.930e-02 	
        88.927	  8.930e-02 	
        89.024	  8.920e-02 	
        89.087	  8.920e-02 	
        89.151	  8.920e-02 	
        89.215	  8.910e-02 	
        89.278	  8.910e-02 	
        89.343	  8.910e-02 	
        89.407	  8.910e-02 	
        89.472	  8.910e-02 	
        89.536	  8.920e-02 	
        89.600	  8.920e-02 	
        89.663	  8.920e-02 	
        89.727	  8.930e-02 	
        89.824	  8.930e-02 	
        89.888	  8.930e-02 	
        89.952	  8.930e-02 	
        90.016	  8.930e-02 	
        90.079	  8.930e-02 	
        90.143	  8.930e-02 	
        90.208	  8.940e-02 	
        90.272	  8.940e-02 	
        90.336	  8.940e-02 	
        90.399	  8.940e-02 	
        90.464	  8.940e-02 	
        90.527	  8.940e-02 	
        90.623	  8.940e-02 	
        90.688	  8.940e-02 	
        90.751	  8.950e-02 	
        90.816	  8.950e-02 	
        90.880	  8.950e-02 	
        90.943	  8.950e-02 	
        91.008	  8.950e-02 	
        91.072	  8.960e-02 	
        91.135	  8.960e-02 	
        91.200	  8.960e-02 	
        91.263	  8.960e-02 	
        91.327	  8.960e-02 	
        91.424	  8.960e-02 	
        91.488	  8.960e-02 	
        91.552	  8.960e-02 	
        91.615	  8.960e-02 	
        91.680	  8.950e-02 	
        91.743	  8.950e-02 	
        91.808	  8.950e-02 	
        91.872	  8.940e-02 	
        91.935	  8.940e-02 	
        92.000	  8.940e-02 	
        92.064	  8.940e-02 	
        92.127	  8.940e-02 	
        92.224	  8.940e-02 	
        92.288	  8.940e-02 	
        92.351	  8.950e-02 	
        92.416	  8.950e-02 	
        92.479	  8.950e-02 	
        92.543	  8.950e-02 	
        92.607	  8.940e-02 	
        92.672	  8.940e-02 	
        92.735	  8.930e-02 	
        92.799	  8.930e-02 	
        92.863	  8.920e-02 	
        92.927	  8.920e-02 	
        93.023	  8.920e-02 	
        93.087	  8.920e-02 	
        93.151	  8.920e-02 	
        93.215	  8.910e-02 	
        93.279	  8.910e-02 	
        93.343	  8.910e-02 	
        93.408	  8.910e-02 	
        93.471	  8.910e-02 	
        93.536	  8.910e-02 	
        93.600	  8.910e-02 	
        93.663	  8.920e-02 	
        93.727	  8.920e-02 	
        93.824	  8.920e-02 	
        93.888	  8.920e-02 	
        93.951	  8.920e-02 	
        94.015	  8.920e-02 	
        94.080	  8.910e-02 	
        94.143	  8.910e-02 	
        94.207	  8.910e-02 	
        94.272	  8.910e-02 	
        94.336	  8.920e-02 	
        94.399	  8.920e-02 	
        94.463	  8.920e-02 	
        94.527	  8.930e-02 	
        94.624	  8.930e-02 	
        94.688	  8.930e-02 	
        94.752	  8.930e-02 	
        94.816	  8.930e-02 	
        94.879	  8.940e-02 	
        94.943	  8.940e-02 	
        95.007	  8.940e-02 	
        95.071	  8.940e-02 	
        95.135	  8.940e-02 	
        95.200	  8.950e-02 	
        95.263	  8.950e-02 	
        95.328	  8.950e-02 	
        95.424	  8.960e-02 	
        95.487	  8.960e-02 	
        95.552	  8.960e-02 	
        95.614	  8.960e-02 	
        95.679	  8.970e-02 	
        95.743	  8.970e-02 	
        95.808	  8.970e-02 	
        95.872	  8.980e-02 	
        95.936	  8.980e-02 	
        95.999	  8.980e-02 	
        96.063	  8.990e-02 	
        96.126	  8.990e-02 	
        96.224	  9.000e-02 	
        96.288	  9.000e-02 	
        96.351	  9.000e-02 	
        96.415	  9.010e-02 	
        96.480	  9.010e-02 	
        96.543	  9.020e-02 	
        96.608	  9.020e-02 	
        96.671	  9.030e-02 	
        96.736	  9.040e-02 	
        96.800	  9.040e-02 	
        96.863	  9.040e-02 	
        96.928	  9.050e-02 	
        97.024	  9.050e-02 	
        97.088	  9.050e-02 	
        97.152	  9.060e-02 	
        97.215	  9.060e-02 	
        97.279	  9.070e-02 	
        97.343	  9.070e-02 	
        97.408	  9.070e-02 	
        97.471	  9.080e-02 	
        97.535	  9.080e-02 	
        97.600	  9.080e-02 	
        97.663	  9.080e-02 	
        97.727	  9.090e-02 	
        97.824	  9.090e-02 	
        97.887	  9.090e-02 	
        97.952	  9.100e-02 	
        98.015	  9.110e-02 	
        98.080	  9.110e-02 	
        98.143	  9.110e-02 	
        98.208	  9.120e-02 	
        98.272	  9.120e-02 	
        98.336	  9.120e-02 	
        98.400	  9.120e-02 	
        98.464	  9.130e-02 	
        98.527	  9.130e-02 	
        98.623	  9.140e-02 	
        98.688	  9.140e-02 	
        98.752	  9.140e-02 	
        98.816	  9.150e-02 	
        98.880	  9.150e-02 	
        98.943	  9.160e-02 	
        99.008	  9.170e-02 	
        99.072	  9.170e-02 	
        99.135	  9.180e-02 	
        99.199	  9.180e-02 	
        99.263	  9.190e-02 	
        99.327	  9.190e-02 	
        99.423	  9.200e-02 	
        99.488	  9.200e-02 	
        99.552	  9.210e-02 	
        99.615	  9.210e-02 	
        99.680	  9.220e-02 	
        99.742	  9.220e-02 	
        99.808	  9.220e-02 	
        99.871	  9.230e-02 	
        99.936	  9.230e-02 	
        99.999	  9.240e-02 	
       100.064	  9.240e-02 	
       100.127	  9.250e-02 	
       100.191	  9.250e-02 	
       100.288	  9.260e-02 	
       100.352	  9.260e-02 	
       100.415	  9.270e-02 	
       100.478	  9.270e-02 	
       100.543	  9.280e-02 	
       100.608	  9.280e-02 	
       100.672	  9.290e-02 	
       100.736	  9.290e-02 	
       100.800	  9.300e-02 	
       100.863	  9.300e-02 	
       100.927	  9.300e-02 	
       100.991	  9.310e-02 	
       101.088	  9.310e-02 	
       101.152	  9.310e-02 	
       101.215	  9.310e-02 	
       101.279	  9.310e-02 	
       101.343	  9.320e-02 	
       101.407	  9.320e-02 	
       101.472	  9.310e-02 	
       101.536	  9.310e-02 	
       101.600	  9.310e-02 	
       101.664	  9.310e-02 	
       101.727	  9.310e-02 	
       101.791	  9.310e-02 	
       101.888	  9.310e-02 	
       101.951	  9.320e-02 	
       102.016	  9.320e-02 	
       102.080	  9.320e-02 	
       102.143	  9.320e-02 	
       102.208	  9.320e-02 	
       102.271	  9.320e-02 	
       102.336	  9.320e-02 	
       102.399	  9.320e-02 	
       102.464	  9.320e-02 	
       102.528	  9.310e-02 	
       102.591	  9.300e-02 	
       102.688	  9.300e-02 	
       102.751	  9.300e-02 	
       102.815	  9.290e-02 	
       102.879	  9.290e-02 	
       102.943	  9.290e-02 	
       103.007	  9.290e-02 	
       103.071	  9.290e-02 	
       103.135	  9.290e-02 	
       103.200	  9.290e-02 	
       103.263	  9.290e-02 	
       103.328	  9.300e-02 	
       103.391	  9.300e-02 	
       103.487	  9.300e-02 	
       103.552	  9.300e-02 	
       103.615	  9.300e-02 	
       103.680	  9.310e-02 	
       103.744	  9.310e-02 	
       103.807	  9.310e-02 	
       103.871	  9.310e-02 	
       103.936	  9.320e-02 	
       104.000	  9.320e-02 	
       104.064	  9.320e-02 	
       104.127	  9.320e-02 	
       104.191	  9.320e-02 	
       104.288	  9.320e-02 	
       104.351	  9.320e-02 	
       104.416	  9.320e-02 	
       104.479	  9.320e-02 	
       104.543	  9.320e-02 	
       104.607	  9.310e-02 	
       104.672	  9.320e-02 	
       104.736	  9.320e-02 	
       104.799	  9.320e-02 	
       104.864	  9.320e-02 	
       104.927	  9.310e-02 	
       104.990	  9.310e-02 	
       105.088	  9.310e-02 	
       105.152	  9.320e-02 	
       105.216	  9.320e-02 	
       105.279	  9.320e-02 	
       105.344	  9.320e-02 	
       105.407	  9.320e-02 	
       105.472	  9.320e-02 	
       105.535	  9.320e-02 	
       105.599	  9.320e-02 	
       105.664	  9.320e-02 	
       105.727	  9.320e-02 	
       105.791	  9.310e-02 	
       105.888	  9.310e-02 	
       105.951	  9.310e-02 	
       106.016	  9.310e-02 	
       106.079	  9.300e-02 	
       106.143	  9.300e-02 	
       106.207	  9.300e-02 	
       106.272	  9.300e-02 	
       106.336	  9.300e-02 	
       106.400	  9.300e-02 	
       106.463	  9.300e-02 	
       106.527	  9.300e-02 	
       106.591	  9.300e-02 	
       106.687	  9.300e-02 	
       106.752	  9.310e-02 	
       106.816	  9.310e-02 	
       106.880	  9.310e-02 	
       106.943	  9.310e-02 	
       107.007	  9.310e-02 	
       107.072	  9.310e-02 	
       107.135	  9.300e-02 	
       107.200	  9.300e-02 	
       107.264	  9.300e-02 	
       107.327	  9.300e-02 	
       107.390	  9.300e-02 	
       107.488	  9.300e-02 	
       107.551	  9.300e-02 	
       107.616	  9.300e-02 	
       107.679	  9.300e-02 	
       107.744	  9.300e-02 	
       107.807	  9.300e-02 	
       107.872	  9.300e-02 	
       107.935	  9.300e-02 	
       107.999	  9.300e-02 	
       108.064	  9.310e-02 	
       108.127	  9.310e-02 	
       108.191	  9.310e-02 	
       108.288	  9.320e-02 	
       108.351	  9.320e-02 	
       108.416	  9.320e-02 	
       108.479	  9.320e-02 	
       108.544	  9.310e-02 	
       108.607	  9.310e-02 	
       108.671	  9.310e-02 	
       108.735	  9.300e-02 	
       108.799	  9.290e-02 	
       108.864	  9.290e-02 	
       108.926	  9.280e-02 	
       108.991	  9.270e-02 	
       109.088	  9.270e-02 	
       109.151	  9.260e-02 	
       109.215	  9.260e-02 	
       109.280	  9.250e-02 	
       109.343	  9.250e-02 	
       109.407	  9.250e-02 	
       109.472	  9.260e-02 	
       109.535	  9.260e-02 	
       109.600	  9.260e-02 	
       109.664	  9.260e-02 	
       109.727	  9.260e-02 	
       109.791	  9.260e-02 	
       109.887	  9.260e-02 	
       109.952	  9.250e-02 	
       110.016	  9.250e-02 	
       110.079	  9.250e-02 	
       110.144	  9.260e-02 	
       110.206	  9.260e-02 	
       110.271	  9.260e-02 	
       110.336	  9.260e-02 	
       110.400	  9.260e-02 	
       110.464	  9.260e-02 	
       110.528	  9.260e-02 	
       110.591	  9.260e-02 	
       110.688	  9.270e-02 	
       110.752	  9.270e-02 	
       110.816	  9.270e-02 	
       110.879	  9.270e-02 	
       110.943	  9.270e-02 	
       111.006	  9.260e-02 	
       111.071	  9.260e-02 	
       111.135	  9.260e-02 	
       111.200	  9.260e-02 	
       111.264	  9.260e-02 	
       111.328	  9.260e-02 	
       111.391	  9.250e-02 	
       111.488	  9.250e-02 	
       111.552	  9.240e-02 	
       111.616	  9.240e-02 	
       111.679	  9.230e-02 	
       111.743	  9.230e-02 	
       111.806	  9.230e-02 	
       111.871	  9.230e-02 	
       111.936	  9.230e-02 	
       111.999	  9.230e-02 	
       112.063	  9.230e-02 	
       112.127	  9.230e-02 	
       112.191	  9.230e-02 	
       112.288	  9.230e-02 	
       112.352	  9.230e-02 	
       112.414	  9.230e-02 	
       112.480	  9.230e-02 	
       112.543	  9.230e-02 	
       112.607	  9.240e-02 	
       112.672	  9.240e-02 	
       112.736	  9.250e-02 	
       112.800	  9.250e-02 	
       112.863	  9.250e-02 	
       112.928	  9.250e-02 	
       112.991	  9.250e-02 	
       113.056	  9.250e-02 	
       113.152	  9.250e-02 	
       113.215	  9.250e-02 	
       113.280	  9.250e-02 	
       113.343	  9.250e-02 	
       113.407	  9.250e-02 	
       113.472	  9.260e-02 	
       113.535	  9.260e-02 	
       113.600	  9.270e-02 	
       113.663	  9.270e-02 	
       113.728	  9.280e-02 	
       113.792	  9.290e-02 	
       113.856	  9.290e-02 	
       113.952	  9.290e-02 	
       114.015	  9.290e-02 	
       114.079	  9.300e-02 	
       114.144	  9.300e-02 	
       114.207	  9.300e-02 	
       114.272	  9.300e-02 	
       114.336	  9.300e-02 	
       114.399	  9.300e-02 	
       114.464	  9.300e-02 	
       114.527	  9.290e-02 	
       114.591	  9.290e-02 	
       114.656	  9.280e-02 	
       114.751	  9.270e-02 	
       114.816	  9.260e-02 	
       114.880	  9.260e-02 	
       114.943	  9.250e-02 	
       115.007	  9.240e-02 	
       115.071	  9.230e-02 	
       115.136	  9.220e-02 	
       115.198	  9.200e-02 	
       115.263	  9.190e-02 	
       115.328	  9.180e-02 	
       115.391	  9.160e-02 	
       115.456	  9.150e-02 	
       115.552	  9.140e-02 	
       115.615	  9.120e-02 	
       115.680	  9.110e-02 	
       115.743	  9.100e-02 	
       115.807	  9.080e-02 	
       115.872	  9.070e-02 	
       115.936	  9.050e-02 	
       115.999	  9.040e-02 	
       116.063	  9.020e-02 	
       116.127	  9.010e-02 	
       116.191	  8.990e-02 	
       116.256	  8.980e-02 	
       116.352	  8.960e-02 	
       116.415	  8.950e-02 	
       116.480	  8.930e-02 	
       116.543	  8.910e-02 	
       116.607	  8.890e-02 	
       116.672	  8.880e-02 	
       116.736	  8.860e-02 	
       116.799	  8.840e-02 	
       116.863	  8.810e-02 	
       116.927	  8.790e-02 	
       116.991	  8.770e-02 	
       117.056	  8.740e-02 	
       117.152	  8.720e-02 	
       117.215	  8.690e-02 	
       117.280	  8.670e-02 	
       117.343	  8.650e-02 	
       117.407	  8.620e-02 	
       117.472	  8.600e-02 	
       117.536	  8.580e-02 	
       117.600	  8.550e-02 	
       117.663	  8.530e-02 	
       117.728	  8.500e-02 	
       117.791	  8.470e-02 	
       117.855	  8.450e-02 	
       117.952	  8.430e-02 	
       118.015	  8.410e-02 	
       118.080	  8.400e-02 	
       118.143	  8.390e-02 	
       118.207	  8.370e-02 	
       118.272	  8.360e-02 	
       118.336	  8.350e-02 	
       118.398	  8.350e-02 	
       118.462	  8.340e-02 	
       118.528	  8.330e-02 	
       118.591	  8.330e-02 	
       118.655	  8.320e-02 	
       118.752	  8.320e-02 	
       118.815	  8.310e-02 	
       118.880	  8.300e-02 	
       118.944	  8.300e-02 	
       119.007	  8.290e-02 	
       119.072	  8.290e-02 	
       119.135	  8.280e-02 	
       119.199	  8.280e-02 	
       119.264	  8.280e-02 	
       119.327	  8.270e-02 	
       119.391	  8.270e-02 	
       119.455	  8.270e-02 	
       119.552	  8.270e-02 	
       119.615	  8.260e-02 	
       119.680	  8.260e-02 	
       119.743	  8.260e-02 	
       119.808	  8.260e-02 	
       119.872	  8.260e-02 	
       119.936	  8.260e-02 	
       119.999	  8.260e-02 	
       120.062	  8.260e-02 	
       120.127	  8.270e-02 	
       120.191	  8.270e-02 	
       120.255	  8.270e-02 	
       120.352	  8.280e-02 	
       120.415	  8.280e-02 	
       120.480	  8.280e-02 	
       120.543	  8.280e-02 	
       120.607	  8.280e-02 	
       120.672	  8.290e-02 	
       120.736	  8.290e-02 	
       120.799	  8.290e-02 	
       120.864	  8.290e-02 	
       120.928	  8.290e-02 	
       120.991	  8.290e-02 	
       121.055	  8.290e-02 	
       121.152	  8.290e-02 	
       121.216	  8.290e-02 	
       121.280	  8.290e-02 	
       121.343	  8.290e-02 	
       121.408	  8.290e-02 	
       121.471	  8.290e-02 	
       121.536	  8.290e-02 	
       121.600	  8.290e-02 	
       121.663	  8.290e-02 	
       121.728	  8.290e-02 	
       121.791	  8.290e-02 	
       121.855	  8.290e-02 	
       121.952	  8.290e-02 	
       122.016	  8.290e-02 	
       122.080	  8.290e-02 	
       122.143	  8.290e-02 	
       122.207	  8.290e-02 	
       122.272	  8.290e-02 	
       122.335	  8.290e-02 	
       122.400	  8.300e-02 	
       122.464	  8.300e-02 	
       122.528	  8.310e-02 	
       122.592	  8.320e-02 	
       122.655	  8.340e-02 	
       122.752	  8.350e-02 	
       122.816	  8.370e-02 	
       122.879	  8.380e-02 	
       122.944	  8.400e-02 	
       123.008	  8.420e-02 	
       123.071	  8.450e-02 	
       123.136	  8.470e-02 	
       123.199	  8.500e-02 	
       123.264	  8.530e-02 	
       123.327	  8.560e-02 	
       123.391	  8.590e-02 	
       123.455	  8.620e-02 	
       123.551	  8.640e-02 	
       123.616	  8.670e-02 	
       123.680	  8.700e-02 	
       123.744	  8.730e-02 	
       123.808	  8.750e-02 	
       123.871	  8.770e-02 	
       123.936	  8.800e-02 	
       124.000	  8.810e-02 	
       124.064	  8.830e-02 	
       124.127	  8.840e-02 	
       124.191	  8.860e-02 	
       124.255	  8.870e-02 	
       124.351	  8.890e-02 	
       124.415	  8.900e-02 	
       124.480	  8.910e-02 	
       124.543	  8.930e-02 	
       124.608	  8.940e-02 	
       124.671	  8.950e-02 	
       124.736	  8.960e-02 	
       124.800	  8.980e-02 	
       124.864	  8.990e-02 	
       124.926	  9.010e-02 	
       124.991	  9.020e-02 	
       125.055	  9.040e-02 	
       125.151	  9.060e-02 	
       125.215	  9.080e-02 	
       125.280	  9.100e-02 	
       125.343	  9.120e-02 	
       125.407	  9.130e-02 	
       125.471	  9.150e-02 	
       125.536	  9.160e-02 	
       125.600	  9.180e-02 	
       125.663	  9.190e-02 	
       125.727	  9.200e-02 	
       125.791	  9.210e-02 	
       125.855	  9.220e-02 	
       125.951	  9.230e-02 	
       126.016	  9.240e-02 	
       126.079	  9.250e-02 	
       126.144	  9.250e-02 	
       126.207	  9.250e-02 	
       126.271	  9.250e-02 	
       126.336	  9.250e-02 	
       126.399	  9.250e-02 	
       126.464	  9.250e-02 	
       126.527	  9.250e-02 	
       126.591	  9.250e-02 	
       126.655	  9.250e-02 	
       126.720	  9.250e-02 	
       126.816	  9.250e-02 	
       126.880	  9.250e-02 	
       126.944	  9.260e-02 	
       127.008	  9.260e-02 	
       127.071	  9.260e-02 	
       127.135	  9.260e-02 	
       127.199	  9.260e-02 	
       127.264	  9.260e-02 	
       127.327	  9.260e-02 	
       127.392	  9.260e-02 	
       127.455	  9.260e-02 	
       127.519	  9.260e-02 	
       127.616	  9.260e-02 	
       127.679	  9.260e-02 	
       127.744	  9.260e-02 	
       127.808	  9.270e-02 	
       127.871	  9.270e-02 	
       127.935	  9.270e-02 	
       127.999	  9.280e-02 	
       128.064	  9.280e-02 	
       128.128	  9.280e-02 	
       128.191	  9.280e-02 	
       128.255	  9.270e-02 	
       128.319	  9.270e-02 	
       128.415	  9.270e-02 	
       128.480	  9.270e-02 	
       128.544	  9.270e-02 	
       128.608	  9.270e-02 	
       128.671	  9.270e-02 	
       128.735	  9.270e-02 	
       128.799	  9.270e-02 	
       128.863	  9.270e-02 	
       128.927	  9.270e-02 	
       128.992	  9.270e-02 	
       129.055	  9.270e-02 	
       129.120	  9.270e-02 	
       129.215	  9.280e-02 	
       129.280	  9.280e-02 	
       129.344	  9.280e-02 	
       129.407	  9.280e-02 	
       129.471	  9.280e-02 	
       129.535	  9.280e-02 	
       129.600	  9.280e-02 	
       129.663	  9.290e-02 	
       129.727	  9.290e-02 	
       129.792	  9.290e-02 	
       129.855	  9.290e-02 	
       129.919	  9.290e-02 	
       130.016	  9.290e-02 	
       130.079	  9.290e-02 	
       130.144	  9.290e-02 	
       130.207	  9.280e-02 	
       130.270	  9.280e-02 	
       130.336	  9.280e-02 	
       130.399	  9.280e-02 	
       130.463	  9.270e-02 	
       130.527	  9.270e-02 	
       130.592	  9.270e-02 	
       130.655	  9.270e-02 	
       130.720	  9.270e-02 	
       130.816	  9.270e-02 	
       130.878	  9.270e-02 	
       130.944	  9.280e-02 	
       131.007	  9.280e-02 	
       131.071	  9.280e-02 	
       131.135	  9.280e-02 	
       131.200	  9.290e-02 	
       131.264	  9.290e-02 	
       131.327	  9.290e-02 	
       131.392	  9.290e-02 	
       131.455	  9.290e-02 	
       131.520	  9.290e-02 	
       131.616	  9.290e-02 	
       131.680	  9.290e-02 	
       131.743	  9.290e-02 	
       131.807	  9.300e-02 	
       131.871	  9.300e-02 	
       131.935	  9.300e-02 	
       131.999	  9.300e-02 	
       132.063	  9.300e-02 	
       132.127	  9.300e-02 	
       132.191	  9.300e-02 	
       132.254	  9.290e-02 	
       132.319	  9.290e-02 	
       132.415	  9.290e-02 	
       132.479	  9.280e-02 	
       132.543	  9.280e-02 	
       132.607	  9.280e-02 	
       132.670	  9.270e-02 	
       132.736	  9.270e-02 	
       132.799	  9.270e-02 	
       132.864	  9.270e-02 	
       132.928	  9.270e-02 	
       132.992	  9.270e-02 	
       133.055	  9.280e-02 	
       133.120	  9.280e-02 	
       133.215	  9.280e-02 	
       133.279	  9.280e-02 	
       133.344	  9.280e-02 	
       133.407	  9.290e-02 	
       133.471	  9.290e-02 	
       133.535	  9.300e-02 	
       133.599	  9.300e-02 	
       133.664	  9.300e-02 	
       133.728	  9.300e-02 	
       133.792	  9.300e-02 	
       133.855	  9.300e-02 	
       133.920	  9.300e-02 	
       134.016	  9.290e-02 	
       134.079	  9.290e-02 	
       134.143	  9.290e-02 	
       134.207	  9.290e-02 	
       134.271	  9.290e-02 	
       134.335	  9.300e-02 	
       134.400	  9.300e-02 	
       134.464	  9.300e-02 	
       134.528	  9.300e-02 	
       134.591	  9.300e-02 	
       134.655	  9.300e-02 	
       134.719	  9.290e-02 	
       134.816	  9.290e-02 	
       134.879	  9.290e-02 	
       134.943	  9.290e-02 	
       135.007	  9.290e-02 	
       135.071	  9.280e-02 	
       135.135	  9.280e-02 	
       135.199	  9.280e-02 	
       135.263	  9.270e-02 	
       135.328	  9.270e-02 	
       135.392	  9.270e-02 	
       135.455	  9.270e-02 	
       135.520	  9.270e-02 	
       135.616	  9.270e-02 	
       135.680	  9.270e-02 	
       135.743	  9.280e-02 	
       135.807	  9.280e-02 	
       135.871	  9.290e-02 	
       135.936	  9.290e-02 	
       136.000	  9.300e-02 	
       136.063	  9.300e-02 	
       136.127	  9.300e-02 	
       136.192	  9.300e-02 	
       136.255	  9.300e-02 	
       136.320	  9.300e-02 	
       136.416	  9.300e-02 	
       136.480	  9.300e-02 	
       136.544	  9.300e-02 	
       136.607	  9.300e-02 	
       136.671	  9.300e-02 	
       136.735	  9.300e-02 	
       136.798	  9.300e-02 	
       136.863	  9.300e-02 	
       136.928	  9.300e-02 	
       136.992	  9.290e-02 	
       137.055	  9.290e-02 	
       137.119	  9.280e-02 	
       137.215	  9.280e-02 	
       137.280	  9.270e-02 	
       137.343	  9.270e-02 	
       137.407	  9.260e-02 	
       137.471	  9.260e-02 	
       137.536	  9.260e-02 	
       137.600	  9.250e-02 	
       137.664	  9.250e-02 	
       137.726	  9.250e-02 	
       137.791	  9.260e-02 	
       137.854	  9.260e-02 	
       137.919	  9.260e-02 	
